{
    "_links": {
        "parentBiomedicalConcept": {
            "href": "/mdr/bc/packages/2023-07-06/biomedicalconcepts/C111132",
            "title": "Axis and Voltage ECG Assessment",
            "type": "Biomedical Concept"
        },
        "parentPackage": {
            "href": "/mdr/specializations/sdtm/packages/2023-07-06/datasetspecializations",
            "title": "SDTM Dataset Specialization Package Effective 2023-07-06",
            "type": "SDTM Dataset Specialization Package"
        },
        "self": {
            "href": "/mdr/specializations/sdtm/packages/2023-07-06/datasetspecializations/AXISVOLT",
            "title": "Axis and Voltage ECG Assessment",
            "type": "SDTM Dataset Specialization"
        }
    },
    "datasetSpecializationId": "AXISVOLT",
    "domain": "EG",
    "shortName": "Axis and Voltage ECG Assessment",
    "source": "EG.EGTESTCD",
    "sdtmigStartVersion": "3-2",
    "sdtmigEndVersion": "",
    "variables": [
        {
            "name": "EGTESTCD",
            "isNonStandard": false,
            "codelist": {
                "conceptId": "C71153",
                "submissionValue": "EGTESTCD",
                "href": "https://ncithesaurus.nci.nih.gov/ncitbrowser/ConceptReport.jsp?dictionary=NCI_Thesaurus&ns=ncit&code=C71153"
            },
            "assignedTerm": {
                "conceptId": "C111132",
                "value": "AXISVOLT"
            },
            "role": "Topic",
            "relationship": {
                "subject": "EGTESTCD",
                "linkingPhrase": "is the code for the value in",
                "predicateTerm": "IS_DECODED_BY",
                "object": "EGTEST"
            },
            "mandatoryVariable": true,
            "mandatoryValue": false,
            "comparator": "EQ"
        },
        {
            "name": "EGTEST",
            "isNonStandard": false,
            "codelist": {
                "conceptId": "C71152",
                "submissionValue": "EGTEST",
                "href": "https://ncithesaurus.nci.nih.gov/ncitbrowser/ConceptReport.jsp?dictionary=NCI_Thesaurus&ns=ncit&code=C71152"
            },
            "assignedTerm": {
                "conceptId": "C111132",
                "value": "Axis and Voltage"
            },
            "role": "Qualifier",
            "relationship": {
                "subject": "EGTEST",
                "linkingPhrase": "decodes the value in",
                "predicateTerm": "DECODES",
                "object": "EGTESTCD"
            },
            "mandatoryVariable": true,
            "mandatoryValue": false
        },
        {
            "name": "EGORRES",
            "dataElementConceptId": "C70856",
            "isNonStandard": false,
            "role": "Qualifier",
            "dataType": "text",
            "length": 8,
            "format": "8.3",
            "significantDigits": 3,
            "relationship": {
                "subject": "EGORRES",
                "linkingPhrase": "is the result of the test in",
                "predicateTerm": "IS_RESULT_OF",
                "object": "EGTESTCD"
            },
            "mandatoryVariable": true,
            "mandatoryValue": false,
            "originType": "Collected",
            "vlmTarget": true
        },
        {
            "name": "EGSTRESC",
            "dataElementConceptId": "C70856",
            "isNonStandard": false,
            "codelist": {
                "conceptId": "C71150",
                "submissionValue": "EGSTRESC",
                "href": "https://ncithesaurus.nci.nih.gov/ncitbrowser/ConceptReport.jsp?dictionary=NCI_Thesaurus&ns=ncit&code=C71150"
            },
            "subsetCodelist": "EGSTRESC_AXISVOLT",
            "valueList": [
                "DEXTROCARDIA",
                "EARLY R WAVE TRANSITION",
                "ELECTRICAL ALTERNANS",
                "INDETERMINATE QRS AXIS",
                "LATE R WAVE TRANSITION",
                "LOW QRS VOLTAGE",
                "LOW VOLTAGE - LIMB LEADS ONLY",
                "NORTHWEST AXIS",
                "POOR R WAVE PROGRESSION",
                "Q AXIS, LEFT AXIS DEVIATION",
                "Q AXIS, RIGHT AXIS DEVIATION",
                "QRS COMPLEX ABNORMALITY",
                "R WAVE NOTCHED"
            ],
            "role": "Qualifier",
            "dataType": "text",
            "length": 8,
            "format": "8.3",
            "significantDigits": 3,
            "relationship": {
                "subject": "EGSTRESC",
                "linkingPhrase": "is the result of the test in",
                "predicateTerm": "IS_RESULT_OF",
                "object": "EGTESTCD"
            },
            "mandatoryVariable": true,
            "mandatoryValue": false,
            "originType": "Collected",
            "vlmTarget": true
        },
        {
            "name": "EGCAT",
            "dataElementConceptId": "C83254",
            "isNonStandard": false,
            "assignedTerm": {
                "value": "FINDING"
            },
            "role": "Qualifier",
            "relationship": {
                "subject": "EGCAT",
                "linkingPhrase": "groups values in",
                "predicateTerm": "GROUPS",
                "object": "EGTESTCD"
            },
            "mandatoryVariable": false,
            "mandatoryValue": false,
            "comparator": "EQ"
        },
        {
            "name": "EGPOS",
            "dataElementConceptId": "C83113",
            "isNonStandard": false,
            "codelist": {
                "conceptId": "C71148",
                "submissionValue": "POSITION",
                "href": "https://ncithesaurus.nci.nih.gov/ncitbrowser/ConceptReport.jsp?dictionary=NCI_Thesaurus&ns=ncit&code=C71148"
            },
            "role": "Qualifier",
            "relationship": {
                "subject": "EGPOS",
                "linkingPhrase": "was the subject position during performance of the test in",
                "predicateTerm": "IS_SUBJECT_STATE_FOR",
                "object": "EGTESTCD"
            },
            "mandatoryVariable": false,
            "mandatoryValue": false
        },
        {
            "name": "EGMETHOD",
            "dataElementConceptId": "C83089",
            "isNonStandard": false,
            "codelist": {
                "conceptId": "C71151",
                "submissionValue": "EGMETHOD",
                "href": "https://ncithesaurus.nci.nih.gov/ncitbrowser/ConceptReport.jsp?dictionary=NCI_Thesaurus&ns=ncit&code=C71151"
            },
            "role": "Qualifier",
            "relationship": {
                "subject": "EGMETHOD",
                "linkingPhrase": "is the method for the test in",
                "predicateTerm": "SPECIFIES",
                "object": "EGTESTCD"
            },
            "mandatoryVariable": true,
            "mandatoryValue": false
        },
        {
            "name": "EGEVAL",
            "dataElementConceptId": "C83259",
            "isNonStandard": false,
            "codelist": {
                "conceptId": "C78735",
                "submissionValue": "EVAL",
                "href": "https://ncithesaurus.nci.nih.gov/ncitbrowser/ConceptReport.jsp?dictionary=NCI_Thesaurus&ns=ncit&code=C78735"
            },
            "subsetCodelist": "EVAL_EG",
            "valueList": [
                "ADJUDICATION COMMITTEE",
                "INDEPENDENT ASSESSOR",
                "INVESTIGATOR",
                "VENDOR"
            ],
            "role": "Qualifer",
            "relationship": {
                "subject": "EGEVAL",
                "linkingPhrase": "is the role of the assessor who performed the test in",
                "predicateTerm": "PERFORMS",
                "object": "EGTESTCD"
            },
            "mandatoryVariable": false,
            "mandatoryValue": false,
            "comparator": "IN"
        }
    ]
}