{
    "_links": {
        "parentBiomedicalConcept": {
            "href": "/mdr/bc/packages/2023-07-06/biomedicalconcepts/C63521",
            "title": "Quick Freeze",
            "type": "Biomedical Concept"
        },
        "parentPackage": {
            "href": "/mdr/specializations/sdtm/packages/2023-07-06/datasetspecializations",
            "title": "SDTM Dataset Specialization Package Effective 2023-07-06",
            "type": "SDTM Dataset Specialization Package"
        },
        "self": {
            "href": "/mdr/specializations/sdtm/packages/2023-07-06/datasetspecializations/FLASHFREEZING",
            "title": "Biospecimen Flash Freezing",
            "type": "SDTM Dataset Specialization"
        }
    },
    "datasetSpecializationId": "FLASHFREEZING",
    "domain": "BE",
    "shortName": "Biospecimen Flash Freezing",
    "source": "BE.BETERM",
    "sdtmigStartVersion": "3-4",
    "sdtmigEndVersion": "",
    "variables": [
        {
            "name": "BECAT",
            "dataElementConceptId": "C25372",
            "isNonStandard": false,
            "assignedTerm": {
                "value": "PREPARATION"
            },
            "role": "Qualifier",
            "dataType": "text",
            "length": 200,
            "relationship": {
                "subject": "BECAT",
                "linkingPhrase": "groups values in",
                "predicateTerm": "GROUPS",
                "object": "BETERM"
            },
            "mandatoryVariable": false,
            "mandatoryValue": false
        },
        {
            "name": "BEDECOD",
            "dataElementConceptId": "C82977",
            "isNonStandard": false,
            "codelist": {
                "conceptId": "C124297",
                "submissionValue": "BEDECOD",
                "href": "https://ncithesaurus.nci.nih.gov/ncitbrowser/ConceptReport.jsp?dictionary=NCI_Thesaurus&ns=ncit&code=C124297"
            },
            "assignedTerm": {
                "conceptId": "C63521",
                "value": "FLASH FREEZING"
            },
            "role": "Qualifier",
            "dataType": "text",
            "length": 200,
            "relationship": {
                "subject": "BEDECOD",
                "linkingPhrase": "is a dictionary-derived term for the value in",
                "predicateTerm": "IS_DERIVED_FROM",
                "object": "BETERM"
            },
            "mandatoryVariable": true,
            "mandatoryValue": false,
            "originType": "Collected",
            "originSource": "Investigator"
        },
        {
            "name": "BETERM",
            "dataElementConceptId": "C82571",
            "isNonStandard": false,
            "assignedTerm": {
                "value": "Flash Freezing"
            },
            "role": "Topic",
            "dataType": "text",
            "length": 200,
            "relationship": {
                "subject": "BETERM",
                "linkingPhrase": "is original text for",
                "predicateTerm": "IS_ORIGINAL_TEXT_FOR",
                "object": "BEDECOD"
            },
            "mandatoryVariable": true,
            "mandatoryValue": false
        },
        {
            "name": "BEPARTY",
            "dataElementConceptId": "C117052",
            "isNonStandard": false,
            "codelist": {
                "conceptId": "C189265",
                "submissionValue": "ACCPARTY",
                "href": "https://ncithesaurus.nci.nih.gov/ncitbrowser/ConceptReport.jsp?dictionary=NCI_Thesaurus&ns=ncit&code=C189265"
            },
            "role": "Topic",
            "dataType": "text",
            "length": 200,
            "mandatoryVariable": false,
            "mandatoryValue": false
        },
        {
            "name": "BESPEC",
            "dataElementConceptId": "C70713",
            "isNonStandard": true,
            "codelist": {
                "conceptId": "C78734",
                "submissionValue": "SPECTYPE",
                "href": "https://ncithesaurus.nci.nih.gov/ncitbrowser/ConceptReport.jsp?dictionary=NCI_Thesaurus&ns=ncit&code=C78734"
            },
            "role": "Topic",
            "dataType": "text",
            "length": 200,
            "relationship": {
                "subject": "BESPEC",
                "linkingPhrase": "is the material type of the subject of the activity in",
                "predicateTerm": "IS_ATTRIBUTE_FOR",
                "object": "BETERM"
            },
            "mandatoryVariable": false,
            "mandatoryValue": false
        }
    ]
}