{
    "_links": {
        "parentBiomedicalConcept": {
            "href": "/mdr/bc/packages/2022-10-26/biomedicalconcepts/C16358",
            "title": "Body Mass Index (BMI)",
            "type": "Biomedical Concept"
        },
        "parentPackage": {
            "href": "/mdr/specializations/sdtm/packages/2023-07-06/datasetspecializations",
            "title": "SDTM Dataset Specialization Package Effective 2023-07-06",
            "type": "SDTM Dataset Specialization Package"
        },
        "self": {
            "href": "/mdr/specializations/sdtm/packages/2023-07-06/datasetspecializations/BMI",
            "title": "Body Mass Index",
            "type": "SDTM Dataset Specialization"
        }
    },
    "datasetSpecializationId": "BMI",
    "domain": "VS",
    "shortName": "Body Mass Index",
    "source": "VS.VSTESTCD",
    "sdtmigStartVersion": "3-2",
    "sdtmigEndVersion": "",
    "variables": [
        {
            "name": "VSTESTCD",
            "isNonStandard": false,
            "codelist": {
                "conceptId": "C66741",
                "submissionValue": "VSTESTCD",
                "href": "https://ncithesaurus.nci.nih.gov/ncitbrowser/ConceptReport.jsp?dictionary=NCI_Thesaurus&ns=ncit&code=C66741"
            },
            "assignedTerm": {
                "conceptId": "C16358",
                "value": "BMI"
            },
            "role": "Topic",
            "relationship": {
                "subject": "VSTESTCD",
                "linkingPhrase": "is the code for the value in",
                "predicateTerm": "IS_DECODED_BY",
                "object": "VSTEST"
            },
            "mandatoryVariable": true,
            "mandatoryValue": false,
            "comparator": "EQ"
        },
        {
            "name": "VSTEST",
            "isNonStandard": false,
            "codelist": {
                "conceptId": "C67153",
                "submissionValue": "VSTEST",
                "href": "https://ncithesaurus.nci.nih.gov/ncitbrowser/ConceptReport.jsp?dictionary=NCI_Thesaurus&ns=ncit&code=C67153"
            },
            "assignedTerm": {
                "conceptId": "C16358",
                "value": "Body Mass Index"
            },
            "role": "Qualifier",
            "relationship": {
                "subject": "VSTEST",
                "linkingPhrase": "decodes the value in",
                "predicateTerm": "DECODES",
                "object": "VSTESTCD"
            },
            "mandatoryVariable": true,
            "mandatoryValue": false
        },
        {
            "name": "VSORRES",
            "dataElementConceptId": "C138901",
            "isNonStandard": false,
            "role": "Qualifier",
            "dataType": "float",
            "length": 8,
            "format": "8.3",
            "relationship": {
                "subject": "VSORRES",
                "linkingPhrase": "is the result of the test in",
                "predicateTerm": "IS_RESULT_OF",
                "object": "VSTESTCD"
            },
            "mandatoryVariable": true,
            "mandatoryValue": false,
            "originType": "Derived",
            "originSource": "Sponsor",
            "vlmTarget": true
        },
        {
            "name": "VSORRESU",
            "dataElementConceptId": "C42575",
            "isNonStandard": false,
            "codelist": {
                "conceptId": "C71620",
                "submissionValue": "UNIT",
                "href": "https://ncithesaurus.nci.nih.gov/ncitbrowser/ConceptReport.jsp?dictionary=NCI_Thesaurus&ns=ncit&code=C71620"
            },
            "subsetCodelist": "UNIT_BMI",
            "valueList": [
                "kg/m2",
                "psi"
            ],
            "role": "Qualifier",
            "relationship": {
                "subject": "VSORRESU",
                "linkingPhrase": "is the unit for the value in",
                "predicateTerm": "IS_UNIT_FOR",
                "object": "VSORRES"
            },
            "mandatoryVariable": true,
            "mandatoryValue": false,
            "vlmTarget": true
        },
        {
            "name": "VSSTRESC",
            "dataElementConceptId": "C138901",
            "isNonStandard": false,
            "role": "Qualifier",
            "dataType": "float",
            "length": 8,
            "format": "8.3",
            "significantDigits": 3,
            "relationship": {
                "subject": "VSSTRESC",
                "linkingPhrase": "is the result of the test in",
                "predicateTerm": "IS_RESULT_OF",
                "object": "VSTESTCD"
            },
            "mandatoryVariable": false,
            "mandatoryValue": false,
            "vlmTarget": true
        },
        {
            "name": "VSSTRESN",
            "dataElementConceptId": "C138901",
            "isNonStandard": false,
            "role": "Qualifier",
            "dataType": "float",
            "length": 8,
            "format": "8.3",
            "significantDigits": 3,
            "relationship": {
                "subject": "VSSTRESN",
                "linkingPhrase": "is the result of the test in",
                "predicateTerm": "IS_RESULT_OF",
                "object": "VSTESTCD"
            },
            "mandatoryVariable": false,
            "mandatoryValue": false,
            "vlmTarget": true
        },
        {
            "name": "VSSTRESU",
            "dataElementConceptId": "C42575",
            "isNonStandard": false,
            "codelist": {
                "conceptId": "C66770",
                "submissionValue": "VSRESU",
                "href": "https://ncithesaurus.nci.nih.gov/ncitbrowser/ConceptReport.jsp?dictionary=NCI_Thesaurus&ns=ncit&code=C66770"
            },
            "role": "Qualifier",
            "relationship": {
                "subject": "VSSTRESU",
                "linkingPhrase": "is the unit for the value in",
                "predicateTerm": "IS_UNIT_FOR",
                "object": "VSSTRESN"
            },
            "mandatoryVariable": false,
            "mandatoryValue": false,
            "vlmTarget": true
        }
    ]
}