{
    "_links": {
        "parentBiomedicalConcept": {
            "href": "/mdr/bc/packages/2023-07-06/biomedicalconcepts/C25299",
            "title": "Diastolic Blood Pressure",
            "type": "Biomedical Concept"
        },
        "parentPackage": {
            "href": "/mdr/specializations/sdtm/packages/2023-07-06/datasetspecializations",
            "title": "SDTM Dataset Specialization Package Effective 2023-07-06",
            "type": "SDTM Dataset Specialization Package"
        },
        "self": {
            "href": "/mdr/specializations/sdtm/packages/2023-07-06/datasetspecializations/DIABP",
            "title": "Diastolic Blood Pressure",
            "type": "SDTM Dataset Specialization"
        }
    },
    "datasetSpecializationId": "DIABP",
    "domain": "VS",
    "shortName": "Diastolic Blood Pressure",
    "source": "VS.VSTESTCD",
    "sdtmigStartVersion": "3-2",
    "sdtmigEndVersion": "",
    "variables": [
        {
            "name": "VSTESTCD",
            "isNonStandard": false,
            "codelist": {
                "conceptId": "C66741",
                "submissionValue": "VSTESTCD",
                "href": "https://ncithesaurus.nci.nih.gov/ncitbrowser/ConceptReport.jsp?dictionary=NCI_Thesaurus&ns=ncit&code=C66741"
            },
            "assignedTerm": {
                "conceptId": "C25299",
                "value": "DIABP"
            },
            "role": "Topic",
            "relationship": {
                "subject": "VSTESTCD",
                "linkingPhrase": "is the code for the value in",
                "predicateTerm": "IS_DECODED_BY",
                "object": "VSTEST"
            },
            "mandatoryVariable": true,
            "mandatoryValue": false,
            "comparator": "EQ"
        },
        {
            "name": "VSTEST",
            "isNonStandard": false,
            "codelist": {
                "conceptId": "C67153",
                "submissionValue": "VSTEST",
                "href": "https://ncithesaurus.nci.nih.gov/ncitbrowser/ConceptReport.jsp?dictionary=NCI_Thesaurus&ns=ncit&code=C67153"
            },
            "assignedTerm": {
                "conceptId": "C25299",
                "value": "Diastolic Blood Pressure"
            },
            "role": "Qualifier",
            "relationship": {
                "subject": "VSTEST",
                "linkingPhrase": "decodes the value in",
                "predicateTerm": "DECODES",
                "object": "VSTESTCD"
            },
            "mandatoryVariable": true,
            "mandatoryValue": false
        },
        {
            "name": "VSORRES",
            "dataElementConceptId": "C173522",
            "isNonStandard": false,
            "role": "Qualifier",
            "dataType": "integer",
            "length": 3,
            "relationship": {
                "subject": "VSORRES",
                "linkingPhrase": "is the result of the test in",
                "predicateTerm": "IS_RESULT_OF",
                "object": "VSTESTCD"
            },
            "mandatoryVariable": true,
            "mandatoryValue": false,
            "originType": "Collected",
            "originSource": "Investigator",
            "vlmTarget": true
        },
        {
            "name": "VSORRESU",
            "dataElementConceptId": "C49669",
            "isNonStandard": false,
            "codelist": {
                "conceptId": "C66770",
                "submissionValue": "VSRESU",
                "href": "https://ncithesaurus.nci.nih.gov/ncitbrowser/ConceptReport.jsp?dictionary=NCI_Thesaurus&ns=ncit&code=C66770"
            },
            "assignedTerm": {
                "conceptId": "C49670",
                "value": "mmHg"
            },
            "role": "Qualifier",
            "relationship": {
                "subject": "VSORRESU",
                "linkingPhrase": "is the unit for the value in",
                "predicateTerm": "IS_UNIT_FOR",
                "object": "VSORRES"
            },
            "mandatoryVariable": true,
            "mandatoryValue": false,
            "vlmTarget": true
        },
        {
            "name": "VSSTRESC",
            "dataElementConceptId": "C173522",
            "isNonStandard": false,
            "role": "Qualifier",
            "dataType": "integer",
            "length": 3,
            "relationship": {
                "subject": "VSSTRESC",
                "linkingPhrase": "is the result of the test in",
                "predicateTerm": "IS_RESULT_OF",
                "object": "VSTESTCD"
            },
            "mandatoryVariable": false,
            "mandatoryValue": false,
            "vlmTarget": true
        },
        {
            "name": "VSSTRESN",
            "dataElementConceptId": "C173522",
            "isNonStandard": false,
            "role": "Qualifier",
            "dataType": "integer",
            "length": 3,
            "relationship": {
                "subject": "VSSTRESN",
                "linkingPhrase": "is the result of the test in",
                "predicateTerm": "IS_RESULT_OF",
                "object": "VSTESTCD"
            },
            "mandatoryVariable": false,
            "mandatoryValue": false,
            "vlmTarget": true
        },
        {
            "name": "VSSTRESU",
            "dataElementConceptId": "C49669",
            "isNonStandard": false,
            "codelist": {
                "conceptId": "C66770",
                "submissionValue": "VSRESU",
                "href": "https://ncithesaurus.nci.nih.gov/ncitbrowser/ConceptReport.jsp?dictionary=NCI_Thesaurus&ns=ncit&code=C66770"
            },
            "assignedTerm": {
                "conceptId": "C49670",
                "value": "mmHg"
            },
            "role": "Qualifier",
            "relationship": {
                "subject": "VSSTRESU",
                "linkingPhrase": "is the unit for the value in",
                "predicateTerm": "IS_UNIT_FOR",
                "object": "VSSTRESN"
            },
            "mandatoryVariable": false,
            "mandatoryValue": false,
            "vlmTarget": true
        },
        {
            "name": "VSPOS",
            "dataElementConceptId": "C83114",
            "isNonStandard": false,
            "codelist": {
                "conceptId": "C71148",
                "submissionValue": "POSITION",
                "href": "https://ncithesaurus.nci.nih.gov/ncitbrowser/ConceptReport.jsp?dictionary=NCI_Thesaurus&ns=ncit&code=C71148"
            },
            "subsetCodelist": "VSPOS",
            "valueList": [
                "SITTING",
                "STANDING",
                "SUPINE"
            ],
            "role": "Qualifier",
            "relationship": {
                "subject": "VSPOS",
                "linkingPhrase": "is the subject position during performance of the test in",
                "predicateTerm": "IS_SUBJECT_STATE_FOR",
                "object": "VSTESTCD"
            },
            "mandatoryVariable": false,
            "mandatoryValue": false,
            "comparator": "IN"
        },
        {
            "name": "VSLOC",
            "dataElementConceptId": "C83088",
            "isNonStandard": false,
            "codelist": {
                "conceptId": "C74456",
                "submissionValue": "LOC",
                "href": "https://ncithesaurus.nci.nih.gov/ncitbrowser/ConceptReport.jsp?dictionary=NCI_Thesaurus&ns=ncit&code=C74456"
            },
            "subsetCodelist": "VSLOC_PULSE",
            "valueList": [
                "BRACHIAL ARTERY",
                "CAROTID ARTERY",
                "DORSALIS PEDIS ARTERY",
                "FEMORAL ARTERY",
                "RADIAL ARTERY"
            ],
            "role": "Qualifier",
            "relationship": {
                "subject": "VSLOC",
                "linkingPhrase": "specifies the anatomical location of the performance of the test in",
                "predicateTerm": "SPECIFIES",
                "object": "VSTESTCD"
            },
            "mandatoryVariable": false,
            "mandatoryValue": false,
            "comparator": "IN"
        },
        {
            "name": "VSLAT",
            "dataElementConceptId": "C123975",
            "isNonStandard": false,
            "codelist": {
                "conceptId": "C99073",
                "submissionValue": "LAT",
                "href": "https://ncithesaurus.nci.nih.gov/ncitbrowser/ConceptReport.jsp?dictionary=NCI_Thesaurus&ns=ncit&code=C99073"
            },
            "subsetCodelist": "VSLAT_BP",
            "valueList": [
                "LEFT",
                "RIGHT"
            ],
            "role": "Qualifier",
            "relationship": {
                "subject": "VSLAT",
                "linkingPhrase": "further specifies the anatomical location in",
                "predicateTerm": "SPECIFIES",
                "object": "VSLOC"
            },
            "mandatoryVariable": false,
            "mandatoryValue": false,
            "comparator": "IN"
        }
    ]
}