_links:
  parentBiomedicalConcept:
    href: /mdr/bc/packages/2023-10-03/biomedicalconcepts/C117466
    title: Exposure as Collected Domain
    type: Biomedical Concept
  parentPackage:
    href: /mdr/specializations/sdtm/packages/2023-10-03/datasetspecializations
    title: SDTM Dataset Specialization Package Effective 2023-10-03
    type: SDTM Dataset Specialization Package
  self:
    href: /mdr/specializations/sdtm/packages/2023-10-03/datasetspecializations/EXPOSCOLL
    title: Exposure as Collected Name of Treatment
    type: SDTM Dataset Specialization
datasetSpecializationId: EXPOSCOLL
domain: EC
sdtmigEndVersion: ''
sdtmigStartVersion: 3-4
shortName: Exposure as Collected Name of Treatment
source: EC.ECTRT
variables:
- dataElementConceptId: C117473
  dataType: text
  isNonStandard: false
  length: 200
  mandatoryValue: true
  mandatoryVariable: true
  name: ECTRT
  originSource: Investigator
  originType: Collected
  relationship:
    linkingPhrase: is original text for
    object: EXTRT
    predicateTerm: IS_ORIGINAL_TEXT_FOR
    subject: ECTRT
  role: Topic
- dataElementConceptId: C117469
  isNonStandard: false
  mandatoryValue: false
  mandatoryVariable: false
  name: ECREFID
  originSource: Investigator
  originType: Collected
  role: Qualifier
- dataElementConceptId: C117479
  dataType: integer
  isNonStandard: false
  length: 20
  mandatoryValue: false
  mandatoryVariable: false
  name: ECDOSE
  originSource: Investigator
  originType: Collected
  relationship:
    linkingPhrase: is the administered amount of the treatment in
    object: ECTRT
    predicateTerm: IS_ATTRIBUTE_FOR
    subject: ECDOSE
  role: Qualifier
- dataElementConceptId: C117480
  dataType: text
  isNonStandard: false
  length: 100
  mandatoryValue: false
  mandatoryVariable: false
  name: ECDOSTXT
  originSource: Investigator
  originType: Collected
  relationship:
    linkingPhrase: is the administered amount of the treatment in
    object: ECTRT
    predicateTerm: IS_ATTRIBUTE_FOR
    subject: ECDOSTXT
  role: Qualifier
- codelist:
    conceptId: C71620
    href: https://ncithesaurus.nci.nih.gov/ncitbrowser/ConceptReport.jsp?dictionary=NCI_Thesaurus&ns=ncit&code=C71620
    submissionValue: UNIT
  dataElementConceptId: C117481
  dataType: text
  isNonStandard: false
  length: 200
  mandatoryValue: false
  mandatoryVariable: false
  name: ECDOSU
  originSource: Investigator
  originType: Collected
  relationship:
    linkingPhrase: is the unit for
    object: ECDOSE; ECDOSTXT
    predicateTerm: IS_UNIT_FOR
    subject: ECDOSU
  role: Qualifier
- codelist:
    conceptId: C66726
    href: https://ncithesaurus.nci.nih.gov/ncitbrowser/ConceptReport.jsp?dictionary=NCI_Thesaurus&ns=ncit&code=C66726
    submissionValue: FRM
  dataElementConceptId: C117482
  dataType: text
  isNonStandard: false
  length: 200
  mandatoryValue: false
  mandatoryVariable: false
  name: ECDOSFRM
  originSource: Investigator
  originType: Collected
  relationship:
    linkingPhrase: is the physical form of the product in
    object: ECTRT
    predicateTerm: IS_ATTRIBUTE_FOR
    subject: ECDOSFRM
  role: Qualifier
- codelist:
    conceptId: C71113
    href: https://ncithesaurus.nci.nih.gov/ncitbrowser/ConceptReport.jsp?dictionary=NCI_Thesaurus&ns=ncit&code=C71113
    submissionValue: FREQ
  dataElementConceptId: C117483
  dataType: text
  isNonStandard: false
  length: 200
  mandatoryValue: false
  mandatoryVariable: false
  name: ECDOSFRQ
  originSource: Investigator
  originType: Collected
  relationship:
    linkingPhrase: is the frequency of administration of the amount in
    object: ECDOSE; ECDOSTXT
    predicateTerm: SPECIFIES
    subject: ECDOSFRQ
  role: Qualifier
- dataElementConceptId: C117485
  isNonStandard: false
  mandatoryValue: false
  mandatoryVariable: false
  name: ECDOSRGM
  originSource: Investigator
  originType: Collected
  role: Qualifier
- codelist:
    conceptId: C66729
    href: https://ncithesaurus.nci.nih.gov/ncitbrowser/ConceptReport.jsp?dictionary=NCI_Thesaurus&ns=ncit&code=C66729
    submissionValue: ROUTE
  dataElementConceptId: C117486
  dataType: text
  isNonStandard: false
  length: 200
  mandatoryValue: false
  mandatoryVariable: false
  name: ECROUTE
  originSource: Investigator
  originType: Collected
  relationship:
    linkingPhrase: is the part of the body through which is administered the treatment
      in
    object: ECTRT
    predicateTerm: IS_ATTRIBUTE_FOR
    subject: ECROUTE
  role: Qualifier
- isNonStandard: false
  mandatoryValue: false
  mandatoryVariable: false
  name: ECLOT
  originSource: Investigator
  originType: Collected
  role: Qualifier
- codelist:
    conceptId: C74456
    href: https://ncithesaurus.nci.nih.gov/ncitbrowser/ConceptReport.jsp?dictionary=NCI_Thesaurus&ns=ncit&code=C74456
    submissionValue: LOC
  dataElementConceptId: C117488
  dataType: text
  isNonStandard: false
  length: 200
  mandatoryValue: false
  mandatoryVariable: false
  name: ECLOC
  originSource: Investigator
  originType: Collected
  relationship:
    linkingPhrase: is the administration anatomical location for the treatment in
    object: ECTRT
    predicateTerm: SPECIFIES
    subject: ECLOC
  role: Qualifier
- codelist:
    conceptId: C99073
    href: https://ncithesaurus.nci.nih.gov/ncitbrowser/ConceptReport.jsp?dictionary=NCI_Thesaurus&ns=ncit&code=C99073
    submissionValue: LAT
  dataElementConceptId: C117489
  dataType: text
  isNonStandard: false
  length: 200
  mandatoryValue: false
  mandatoryVariable: false
  name: ECLAT
  originSource: Investigator
  originType: Collected
  relationship:
    linkingPhrase: further specifies the anatomical location in
    object: ECLOC
    predicateTerm: SPECIFIES
    subject: ECLAT
  role: Qualifier
- codelist:
    conceptId: C99074
    href: https://ncithesaurus.nci.nih.gov/ncitbrowser/ConceptReport.jsp?dictionary=NCI_Thesaurus&ns=ncit&code=C99074
    submissionValue: DIR
  dataElementConceptId: C117490
  isNonStandard: false
  mandatoryValue: false
  mandatoryVariable: false
  name: ECDIR
  originSource: Investigator
  originType: Collected
  role: Qualifier
- codelist:
    conceptId: C66742
    href: https://ncithesaurus.nci.nih.gov/ncitbrowser/ConceptReport.jsp?dictionary=NCI_Thesaurus&ns=ncit&code=C66742
    submissionValue: NY
  isNonStandard: false
  mandatoryValue: false
  mandatoryVariable: false
  name: ECFAST
  originSource: Investigator
  originType: Collected
  role: Qualifier
  subsetCodelist: NY_NY
  valueList:
  - N
  - Y
- isNonStandard: false
  mandatoryValue: false
  mandatoryVariable: false
  name: ECPSTRG
  originSource: Investigator
  originType: Collected
  role: Qualifier
- isNonStandard: false
  mandatoryValue: false
  mandatoryVariable: false
  name: ECPSTRGU
  originSource: Investigator
  originType: Collected
  role: Qualifier
- isNonStandard: false
  mandatoryValue: false
  mandatoryVariable: false
  name: ECADJ
  originSource: Investigator
  originType: Collected
  role: Qualifier
- dataElementConceptId: C117496
  dataType: datetime
  isNonStandard: false
  mandatoryValue: false
  mandatoryVariable: false
  name: ECSTDTC
  relationship:
    linkingPhrase: is the start date for
    object: ECTRT
    predicateTerm: IS_TIMING_FOR
    subject: ECSTDTC
  role: Timing
- dataElementConceptId: C117497
  dataType: datetime
  isNonStandard: false
  mandatoryValue: false
  mandatoryVariable: false
  name: ECENDTC
  relationship:
    linkingPhrase: is the end date for
    object: ECTRT
    predicateTerm: IS_TIMING_FOR
    subject: ECENDTC
  role: Timing
