{
    "_links": {
        "parentBiomedicalConcept": {
            "href": "/mdr/bc/packages/2022-10-26/biomedicalconcepts/C49680",
            "title": "Body Frame Size",
            "type": "Biomedical Concept"
        },
        "parentPackage": {
            "href": "/mdr/specializations/sdtm/packages/2023-07-06/datasetspecializations",
            "title": "SDTM Dataset Specialization Package Effective 2023-07-06",
            "type": "SDTM Dataset Specialization Package"
        },
        "self": {
            "href": "/mdr/specializations/sdtm/packages/2023-07-06/datasetspecializations/FRMSIZE",
            "title": "Frame Size",
            "type": "SDTM Dataset Specialization"
        }
    },
    "datasetSpecializationId": "FRMSIZE",
    "domain": "VS",
    "shortName": "Frame Size",
    "source": "VS.VSTESTCD",
    "sdtmigStartVersion": "3-2",
    "sdtmigEndVersion": "",
    "variables": [
        {
            "name": "VSTESTCD",
            "isNonStandard": false,
            "codelist": {
                "conceptId": "C66741",
                "submissionValue": "VSTESTCD",
                "href": "https://ncithesaurus.nci.nih.gov/ncitbrowser/ConceptReport.jsp?dictionary=NCI_Thesaurus&ns=ncit&code=C66741"
            },
            "assignedTerm": {
                "conceptId": "C49680",
                "value": "FRMSIZE"
            },
            "role": "Topic",
            "relationship": {
                "subject": "VSTESTCD",
                "linkingPhrase": "is the code for the value in",
                "predicateTerm": "IS_DECODED_BY",
                "object": "VSTEST"
            },
            "mandatoryVariable": true,
            "mandatoryValue": false,
            "comparator": "EQ"
        },
        {
            "name": "VSTEST",
            "isNonStandard": false,
            "codelist": {
                "conceptId": "C67153",
                "submissionValue": "VSTEST",
                "href": "https://ncithesaurus.nci.nih.gov/ncitbrowser/ConceptReport.jsp?dictionary=NCI_Thesaurus&ns=ncit&code=C67153"
            },
            "assignedTerm": {
                "conceptId": "C49680",
                "value": "Body Frame Size"
            },
            "role": "Qualifier",
            "relationship": {
                "subject": "VSTEST",
                "linkingPhrase": "decodes the value in",
                "predicateTerm": "DECODES",
                "object": "VSTESTCD"
            },
            "mandatoryVariable": true,
            "mandatoryValue": false
        },
        {
            "name": "VSORRES",
            "dataElementConceptId": "C173522",
            "isNonStandard": false,
            "codelist": {
                "conceptId": "C66733",
                "submissionValue": "SIZE",
                "href": "https://ncithesaurus.nci.nih.gov/ncitbrowser/ConceptReport.jsp?dictionary=NCI_Thesaurus&ns=ncit&code=C66733"
            },
            "valueList": [
                "SMALL",
                "MEDIUM",
                "LARGE"
            ],
            "role": "Qualifier",
            "dataType": "text",
            "length": 20,
            "relationship": {
                "subject": "VSORRES",
                "linkingPhrase": "is the result of the test in",
                "predicateTerm": "IS_RESULT_OF",
                "object": "VSTESTCD"
            },
            "mandatoryVariable": true,
            "mandatoryValue": false,
            "originType": "Collected",
            "originSource": "Investigator",
            "vlmTarget": true
        },
        {
            "name": "VSSTRESC",
            "dataElementConceptId": "C173522",
            "isNonStandard": false,
            "codelist": {
                "conceptId": "C66733",
                "submissionValue": "SIZE",
                "href": "https://ncithesaurus.nci.nih.gov/ncitbrowser/ConceptReport.jsp?dictionary=NCI_Thesaurus&ns=ncit&code=C66733"
            },
            "role": "Qualifier",
            "dataType": "text",
            "length": 20,
            "relationship": {
                "subject": "VSSTRESC",
                "linkingPhrase": "is the result of the test in",
                "predicateTerm": "IS_RESULT_OF",
                "object": "VSTESTCD"
            },
            "mandatoryVariable": false,
            "mandatoryValue": false,
            "vlmTarget": true
        }
    ]
}