{
    "_links": {
        "parentBiomedicalConcept": {
            "href": "/mdr/bc/packages/2023-07-06/biomedicalconcepts/C96684",
            "title": "Longest Diameter",
            "type": "Biomedical Concept"
        },
        "parentPackage": {
            "href": "/mdr/specializations/sdtm/packages/2023-07-06/datasetspecializations",
            "title": "SDTM Dataset Specialization Package Effective 2023-07-06",
            "type": "SDTM Dataset Specialization Package"
        },
        "self": {
            "href": "/mdr/specializations/sdtm/packages/2023-07-06/datasetspecializations/LDIAM",
            "title": "Longest Diameter",
            "type": "SDTM Dataset Specialization"
        }
    },
    "datasetSpecializationId": "LDIAM",
    "domain": "TR",
    "shortName": "Longest Diameter",
    "source": "TR.TRTESTCD",
    "sdtmigStartVersion": "3-2",
    "sdtmigEndVersion": "",
    "variables": [
        {
            "name": "TRTESTCD",
            "isNonStandard": false,
            "codelist": {
                "conceptId": "C96779",
                "submissionValue": "TRTESTCD",
                "href": "https://ncithesaurus.nci.nih.gov/ncitbrowser/ConceptReport.jsp?dictionary=NCI_Thesaurus&ns=ncit&code=C96779"
            },
            "assignedTerm": {
                "conceptId": "C96684",
                "value": "LDIAM"
            },
            "role": "Topic",
            "relationship": {
                "subject": "TRTESTCD",
                "linkingPhrase": "is the code for the value in",
                "predicateTerm": "IS_DECODED_BY",
                "object": "TRTEST"
            },
            "mandatoryVariable": true,
            "mandatoryValue": false,
            "originType": "Assigned",
            "originSource": "Sponsor",
            "comparator": "EQ"
        },
        {
            "name": "TRTEST",
            "isNonStandard": false,
            "codelist": {
                "conceptId": "C96778",
                "submissionValue": "TRTEST",
                "href": "https://ncithesaurus.nci.nih.gov/ncitbrowser/ConceptReport.jsp?dictionary=NCI_Thesaurus&ns=ncit&code=C96778"
            },
            "assignedTerm": {
                "conceptId": "C96684",
                "value": "Longest Diameter"
            },
            "role": "Qualifier",
            "relationship": {
                "subject": "TRTEST",
                "linkingPhrase": "decodes the value in",
                "predicateTerm": "DECODES",
                "object": "TRTESTCD"
            },
            "mandatoryVariable": true,
            "mandatoryValue": false,
            "originType": "Assigned",
            "originSource": "Sponsor"
        },
        {
            "name": "TRORRES",
            "dataElementConceptId": "C117221",
            "isNonStandard": false,
            "role": "Qualifier",
            "dataType": "text",
            "relationship": {
                "subject": "TRORRES",
                "linkingPhrase": "is the result of the test in",
                "predicateTerm": "IS_RESULT_OF",
                "object": "TRTESTCD"
            },
            "mandatoryVariable": true,
            "mandatoryValue": true,
            "originType": "Collected",
            "originSource": "Investigator",
            "vlmTarget": true
        },
        {
            "name": "TRORRESU",
            "dataElementConceptId": "C42578",
            "isNonStandard": false,
            "codelist": {
                "conceptId": "C71620",
                "submissionValue": "UNIT",
                "href": "https://ncithesaurus.nci.nih.gov/ncitbrowser/ConceptReport.jsp?dictionary=NCI_Thesaurus&ns=ncit&code=C71620"
            },
            "assignedTerm": {
                "conceptId": "C28251",
                "value": "mm"
            },
            "role": "Qualifier",
            "relationship": {
                "subject": "TRORRESU",
                "linkingPhrase": "is the unit for the value in",
                "predicateTerm": "IS_UNIT_FOR",
                "object": "TRTESTCD"
            },
            "mandatoryVariable": true,
            "mandatoryValue": false,
            "originType": "Assigned",
            "originSource": "Sponsor",
            "vlmTarget": true
        },
        {
            "name": "TRSTRESC",
            "dataElementConceptId": "C117222",
            "isNonStandard": false,
            "role": "Qualifier",
            "dataType": "text",
            "relationship": {
                "subject": "TRSTRESC",
                "linkingPhrase": "is the result of the test in",
                "predicateTerm": "IS_RESULT_OF",
                "object": "TRTESTCD"
            },
            "mandatoryVariable": true,
            "mandatoryValue": false,
            "originType": "Derived",
            "originSource": "Sponsor",
            "vlmTarget": true
        },
        {
            "name": "TRSTRESN",
            "dataElementConceptId": "C171009",
            "isNonStandard": false,
            "role": "Qualifier",
            "dataType": "integer",
            "relationship": {
                "subject": "TRSTRESN",
                "linkingPhrase": "is the result of the test in",
                "predicateTerm": "IS_RESULT_OF",
                "object": "TRTESTCD"
            },
            "mandatoryVariable": true,
            "mandatoryValue": false,
            "originType": "Derived",
            "originSource": "Sponsor",
            "vlmTarget": true
        },
        {
            "name": "TRSTRESU",
            "dataElementConceptId": "C42578",
            "isNonStandard": false,
            "codelist": {
                "conceptId": "C71620",
                "submissionValue": "UNIT",
                "href": "https://ncithesaurus.nci.nih.gov/ncitbrowser/ConceptReport.jsp?dictionary=NCI_Thesaurus&ns=ncit&code=C71620"
            },
            "assignedTerm": {
                "conceptId": "C28251",
                "value": "mm"
            },
            "role": "Qualifier",
            "relationship": {
                "subject": "TRSTRESU",
                "linkingPhrase": "is the unit for the value in",
                "predicateTerm": "IS_UNIT_FOR",
                "object": "TRTESTCD"
            },
            "mandatoryVariable": true,
            "mandatoryValue": false,
            "originType": "Derived",
            "originSource": "Sponsor",
            "vlmTarget": true
        },
        {
            "name": "TRMETHOD",
            "dataElementConceptId": "C82535",
            "isNonStandard": false,
            "codelist": {
                "conceptId": "C85492",
                "submissionValue": "METHOD",
                "href": "https://ncithesaurus.nci.nih.gov/ncitbrowser/ConceptReport.jsp?dictionary=NCI_Thesaurus&ns=ncit&code=C85492"
            },
            "valueList": [
                "CT SCAN",
                "CALIPER MEASUREMENT METHOD",
                "ENDOSCOPY",
                "LYMPHANGIOGRAPHY",
                "MAMMOGRAPHY",
                "MRI",
                "NUCLEAR RADIOLOGY",
                "PET SCAN",
                "PET/CT SCAN",
                "PET/MRI SCAN",
                "PHOTOGRAPHY",
                "SCINTIGRAPHY",
                "TOTAL BODY RADIOGRAPHY",
                "ULTRASOUND",
                "X-RAY"
            ],
            "role": "Qualifier",
            "relationship": {
                "subject": "TRMETHOD",
                "linkingPhrase": "is the method for the test in",
                "predicateTerm": "SPECIFIES",
                "object": "TRTESTCD"
            },
            "mandatoryVariable": true,
            "mandatoryValue": false,
            "originType": "Collected",
            "originSource": "Investigator",
            "comparator": "IN"
        },
        {
            "name": "TREVAL",
            "dataElementConceptId": "C51824",
            "isNonStandard": false,
            "codelist": {
                "conceptId": "C78735",
                "submissionValue": "EVAL",
                "href": "https://ncithesaurus.nci.nih.gov/ncitbrowser/ConceptReport.jsp?dictionary=NCI_Thesaurus&ns=ncit&code=C78735"
            },
            "valueList": [
                "INVESTIGATOR",
                "ADJUDICATOR",
                "INDEPENDENT ASSESSOR"
            ],
            "role": "Qualifier",
            "relationship": {
                "subject": "TREVAL",
                "linkingPhrase": "is the role of the assessor who performed the test in",
                "predicateTerm": "PERFORMED",
                "object": "TRTESTCD"
            },
            "mandatoryVariable": false,
            "mandatoryValue": false,
            "originType": "Assigned",
            "originSource": "Sponsor",
            "comparator": "IN"
        },
        {
            "name": "EPOCH",
            "dataElementConceptId": "C71738",
            "isNonStandard": false,
            "codelist": {
                "conceptId": "C99079",
                "submissionValue": "EPOCH",
                "href": "https://ncithesaurus.nci.nih.gov/ncitbrowser/ConceptReport.jsp?dictionary=NCI_Thesaurus&ns=ncit&code=C99079"
            },
            "valueList": [
                "SCREENING",
                "TREATMENT"
            ],
            "role": "Timing",
            "relationship": {
                "subject": "EPOCH",
                "linkingPhrase": "is the epoch of the performance of the test in",
                "predicateTerm": "IS_EPOCH_OF",
                "object": "TRTESTCD"
            },
            "mandatoryVariable": true,
            "mandatoryValue": false,
            "originType": "Assigned",
            "originSource": "Sponsor",
            "comparator": "IN"
        },
        {
            "name": "TRREFID",
            "dataElementConceptId": "C117419",
            "isNonStandard": false,
            "role": "Identifier",
            "relationship": {
                "subject": "TRREFID",
                "linkingPhrase": "is the identifier for the source data used in the performance of the test in",
                "predicateTerm": "IDENTIFIES_PRODUCT_IN",
                "object": "TRTESTCD"
            },
            "mandatoryVariable": true,
            "mandatoryValue": false,
            "originType": "Derived",
            "originSource": "Sponsor"
        },
        {
            "name": "TRLNKID",
            "dataElementConceptId": "C117413",
            "isNonStandard": false,
            "role": "Identifier",
            "relationship": {
                "subject": "TRLNKID",
                "linkingPhrase": "associates the tumor identified in",
                "predicateTerm": "IDENTIFIES_TUMOR_IN",
                "object": "TULNKID"
            },
            "mandatoryVariable": true,
            "mandatoryValue": false,
            "originType": "Derived",
            "originSource": "Sponsor"
        },
        {
            "name": "TRLNKGRP",
            "dataElementConceptId": "C117411",
            "isNonStandard": false,
            "role": "Identifier",
            "relationship": {
                "subject": "TRLNKGRP",
                "linkingPhrase": "groups tumor assessments used in overall response identified by",
                "predicateTerm": "GROUPS_BY",
                "object": "RSLNKGRP"
            },
            "mandatoryVariable": true,
            "mandatoryValue": false,
            "originType": "Assigned"
        }
    ]
}