_links:
  parentBiomedicalConcept:
    href: /mdr/bc/packages/2023-03-31/biomedicalconcepts/C119259
    title: Mean Heart Rate by Electrocardiogram
    type: Biomedical Concept
  parentPackage:
    href: /mdr/specializations/sdtm/packages/2023-07-06/datasetspecializations
    title: SDTM Dataset Specialization Package Effective 2023-07-06
    type: SDTM Dataset Specialization Package
  self:
    href: /mdr/specializations/sdtm/packages/2023-07-06/datasetspecializations/EGHRMN
    title: Mean Heart Rate by Electrocardiogram
    type: SDTM Dataset Specialization
datasetSpecializationId: EGHRMN
domain: EG
sdtmigEndVersion: ''
sdtmigStartVersion: 3-2
shortName: Mean Heart Rate by Electrocardiogram
source: EG.EGTESTCD
variables:
- assignedTerm:
    conceptId: C119259
    value: EGHRMN
  codelist:
    conceptId: C71153
    href: https://ncithesaurus.nci.nih.gov/ncitbrowser/ConceptReport.jsp?dictionary=NCI_Thesaurus&ns=ncit&code=C71153
    submissionValue: EGTESTCD
  comparator: EQ
  isNonStandard: false
  mandatoryValue: false
  mandatoryVariable: true
  name: EGTESTCD
  relationship:
    linkingPhrase: is the code for the value in
    object: EGTEST
    predicateTerm: IS_DECODED_BY
    subject: EGTESTCD
  role: Topic
- assignedTerm:
    conceptId: C119259
    value: ECG Mean Heart Rate
  codelist:
    conceptId: C71152
    href: https://ncithesaurus.nci.nih.gov/ncitbrowser/ConceptReport.jsp?dictionary=NCI_Thesaurus&ns=ncit&code=C71152
    submissionValue: EGTEST
  isNonStandard: false
  mandatoryValue: false
  mandatoryVariable: true
  name: EGTEST
  relationship:
    linkingPhrase: decodes the value in
    object: EGTESTCD
    predicateTerm: DECODES
    subject: EGTEST
  role: Qualifier
- dataElementConceptId: C49148
  dataType: text
  format: '8.3'
  isNonStandard: false
  length: 8
  mandatoryValue: false
  mandatoryVariable: true
  name: EGORRES
  originType: Collected
  relationship:
    linkingPhrase: is the result of the test in
    object: EGTESTCD
    predicateTerm: IS_RESULT_OF
    subject: EGORRES
  role: Qualifier
  significantDigits: 3
  vlmTarget: true
- assignedTerm:
    conceptId: C49673
    value: beats/min
  codelist:
    conceptId: C71620
    href: https://ncithesaurus.nci.nih.gov/ncitbrowser/ConceptReport.jsp?dictionary=NCI_Thesaurus&ns=ncit&code=C71620
    submissionValue: UNIT
  dataElementConceptId: C73688
  isNonStandard: false
  mandatoryValue: false
  mandatoryVariable: true
  name: EGORRESU
  relationship:
    linkingPhrase: is the unit for the value in
    object: EGORRES
    predicateTerm: IS_UNIT_FOR
    subject: EGORRESU
  role: Qualifier
  vlmTarget: true
- dataElementConceptId: C49148
  dataType: text
  format: '8.3'
  isNonStandard: false
  length: 8
  mandatoryValue: false
  mandatoryVariable: true
  name: EGSTRESC
  originType: Collected
  relationship:
    linkingPhrase: is the result of the test in
    object: EGTESTCD
    predicateTerm: IS_RESULT_OF
    subject: EGSTRESC
  role: Qualifier
  significantDigits: 3
  vlmTarget: true
- dataElementConceptId: C49148
  dataType: float
  format: '8.3'
  isNonStandard: false
  length: 8
  mandatoryValue: false
  mandatoryVariable: true
  name: EGSTRESN
  originType: Collected
  relationship:
    linkingPhrase: is the result of the test in
    object: EGTESTCD
    predicateTerm: IS_RESULT_OF
    subject: EGSTRESN
  role: Qualifier
  significantDigits: 3
  vlmTarget: true
- assignedTerm:
    conceptId: C49673
    value: beats/min
  codelist:
    conceptId: C71620
    href: https://ncithesaurus.nci.nih.gov/ncitbrowser/ConceptReport.jsp?dictionary=NCI_Thesaurus&ns=ncit&code=C71620
    submissionValue: UNIT
  dataElementConceptId: C73688
  isNonStandard: false
  mandatoryValue: false
  mandatoryVariable: true
  name: EGSTRESU
  relationship:
    linkingPhrase: is the unit for the value in
    object: EGSTRESN
    predicateTerm: IS_UNIT_FOR
    subject: EGSTRESU
  role: Qualifier
  vlmTarget: true
- assignedTerm:
    value: MEASUREMENT
  comparator: EQ
  dataElementConceptId: C83254
  isNonStandard: false
  mandatoryValue: false
  mandatoryVariable: false
  name: EGCAT
  relationship:
    linkingPhrase: groups values in
    object: EGTESTCD
    predicateTerm: GROUPS
    subject: EGCAT
  role: Qualifier
- codelist:
    conceptId: C71148
    href: https://ncithesaurus.nci.nih.gov/ncitbrowser/ConceptReport.jsp?dictionary=NCI_Thesaurus&ns=ncit&code=C71148
    submissionValue: POSITION
  dataElementConceptId: C83113
  isNonStandard: false
  mandatoryValue: false
  mandatoryVariable: false
  name: EGPOS
  relationship:
    linkingPhrase: was the subject position during performance of the test in
    object: EGTESTCD
    predicateTerm: IS_SUBJECT_STATE_FOR
    subject: EGPOS
  role: Qualifier
- codelist:
    conceptId: C71151
    href: https://ncithesaurus.nci.nih.gov/ncitbrowser/ConceptReport.jsp?dictionary=NCI_Thesaurus&ns=ncit&code=C71151
    submissionValue: EGMETHOD
  dataElementConceptId: C83089
  isNonStandard: false
  mandatoryValue: false
  mandatoryVariable: true
  name: EGMETHOD
  relationship:
    linkingPhrase: is the method for the test in
    object: EGTESTCD
    predicateTerm: SPECIFIES
    subject: EGMETHOD
  role: Qualifier
- codelist:
    conceptId: C78735
    href: https://ncithesaurus.nci.nih.gov/ncitbrowser/ConceptReport.jsp?dictionary=NCI_Thesaurus&ns=ncit&code=C78735
    submissionValue: EVAL
  comparator: IN
  dataElementConceptId: C83259
  isNonStandard: false
  mandatoryValue: false
  mandatoryVariable: false
  name: EGEVAL
  relationship:
    linkingPhrase: is the role of the assessor who performed the test in
    object: EGTESTCD
    predicateTerm: PERFORMS
    subject: EGEVAL
  role: Qualifer
  subsetCodelist: EVAL_EG
  valueList:
  - ADJUDICATION COMMITTEE
  - INDEPENDENT ASSESSOR
  - INVESTIGATOR
  - VENDOR
