{
    "_links": {
        "parentBiomedicalConcept": {
            "href": "/mdr/bc/packages/2023-07-06/biomedicalconcepts/C117773",
            "title": "Aggregate PR Interval",
            "type": "Biomedical Concept"
        },
        "parentPackage": {
            "href": "/mdr/specializations/sdtm/packages/2023-07-06/datasetspecializations",
            "title": "SDTM Dataset Specialization Package Effective 2023-07-06",
            "type": "SDTM Dataset Specialization Package"
        },
        "self": {
            "href": "/mdr/specializations/sdtm/packages/2023-07-06/datasetspecializations/PRAG",
            "title": "PR Interval Aggregate",
            "type": "SDTM Dataset Specialization"
        }
    },
    "datasetSpecializationId": "PRAG",
    "domain": "EG",
    "shortName": "PR Interval Aggregate",
    "source": "EG.EGTESTCD",
    "sdtmigStartVersion": "3-2",
    "sdtmigEndVersion": "",
    "variables": [
        {
            "name": "EGTESTCD",
            "isNonStandard": false,
            "codelist": {
                "conceptId": "C71153",
                "submissionValue": "EGTESTCD",
                "href": "https://ncithesaurus.nci.nih.gov/ncitbrowser/ConceptReport.jsp?dictionary=NCI_Thesaurus&ns=ncit&code=C71153"
            },
            "assignedTerm": {
                "conceptId": "C117773",
                "value": "PRAG"
            },
            "role": "Topic",
            "relationship": {
                "subject": "EGTESTCD",
                "linkingPhrase": "is the code for the value in",
                "predicateTerm": "IS_DECODED_BY",
                "object": "EGTEST"
            },
            "mandatoryVariable": true,
            "mandatoryValue": false,
            "comparator": "EQ"
        },
        {
            "name": "EGTEST",
            "isNonStandard": false,
            "codelist": {
                "conceptId": "C71152",
                "submissionValue": "EGTEST",
                "href": "https://ncithesaurus.nci.nih.gov/ncitbrowser/ConceptReport.jsp?dictionary=NCI_Thesaurus&ns=ncit&code=C71152"
            },
            "assignedTerm": {
                "conceptId": "C117773",
                "value": "PR Interval, Aggregate"
            },
            "role": "Qualifier",
            "relationship": {
                "subject": "EGTEST",
                "linkingPhrase": "decodes the value in",
                "predicateTerm": "DECODES",
                "object": "EGTESTCD"
            },
            "mandatoryVariable": true,
            "mandatoryValue": false
        },
        {
            "name": "EGORRES",
            "dataElementConceptId": "C25330",
            "isNonStandard": false,
            "role": "Qualifier",
            "dataType": "text",
            "length": 8,
            "format": "8.3",
            "significantDigits": 3,
            "relationship": {
                "subject": "EGORRES",
                "linkingPhrase": "is the result of the test in",
                "predicateTerm": "IS_RESULT_OF",
                "object": "EGTESTCD"
            },
            "mandatoryVariable": true,
            "mandatoryValue": false,
            "originType": "Collected",
            "vlmTarget": true
        },
        {
            "name": "EGORRESU",
            "dataElementConceptId": "C42574",
            "isNonStandard": false,
            "codelist": {
                "conceptId": "C71620",
                "submissionValue": "UNIT",
                "href": "https://ncithesaurus.nci.nih.gov/ncitbrowser/ConceptReport.jsp?dictionary=NCI_Thesaurus&ns=ncit&code=C71620"
            },
            "valueList": [
                "ms",
                "/s"
            ],
            "role": "Qualifier",
            "relationship": {
                "subject": "EGORRESU",
                "linkingPhrase": "is the unit for the value in",
                "predicateTerm": "IS_UNIT_FOR",
                "object": "EGORRES"
            },
            "mandatoryVariable": true,
            "mandatoryValue": false,
            "vlmTarget": true
        },
        {
            "name": "EGSTRESC",
            "dataElementConceptId": "C25330",
            "isNonStandard": false,
            "role": "Qualifier",
            "dataType": "text",
            "length": 8,
            "format": "8.3",
            "significantDigits": 3,
            "relationship": {
                "subject": "EGSTRESC",
                "linkingPhrase": "is the result of the test in",
                "predicateTerm": "IS_RESULT_OF",
                "object": "EGTESTCD"
            },
            "mandatoryVariable": true,
            "mandatoryValue": false,
            "originType": "Collected",
            "vlmTarget": true
        },
        {
            "name": "EGSTRESN",
            "dataElementConceptId": "C25330",
            "isNonStandard": false,
            "role": "Qualifier",
            "dataType": "float",
            "length": 8,
            "format": "8.3",
            "significantDigits": 3,
            "relationship": {
                "subject": "EGSTRESN",
                "linkingPhrase": "is the result of the test in",
                "predicateTerm": "IS_RESULT_OF",
                "object": "EGTESTCD"
            },
            "mandatoryVariable": true,
            "mandatoryValue": false,
            "originType": "Collected",
            "vlmTarget": true
        },
        {
            "name": "EGSTRESU",
            "dataElementConceptId": "C42574",
            "isNonStandard": false,
            "codelist": {
                "conceptId": "C71620",
                "submissionValue": "UNIT",
                "href": "https://ncithesaurus.nci.nih.gov/ncitbrowser/ConceptReport.jsp?dictionary=NCI_Thesaurus&ns=ncit&code=C71620"
            },
            "assignedTerm": {
                "conceptId": "C41140",
                "value": "ms"
            },
            "role": "Qualifier",
            "relationship": {
                "subject": "EGSTRESU",
                "linkingPhrase": "is the unit for the value in",
                "predicateTerm": "IS_UNIT_FOR",
                "object": "EGSTRESN"
            },
            "mandatoryVariable": true,
            "mandatoryValue": false,
            "vlmTarget": true
        },
        {
            "name": "EGCAT",
            "dataElementConceptId": "C83254",
            "isNonStandard": false,
            "assignedTerm": {
                "value": "INTERVAL"
            },
            "role": "Qualifier",
            "relationship": {
                "subject": "EGCAT",
                "linkingPhrase": "groups values in",
                "predicateTerm": "GROUPS",
                "object": "EGTESTCD"
            },
            "mandatoryVariable": false,
            "mandatoryValue": false,
            "comparator": "EQ"
        },
        {
            "name": "EGPOS",
            "dataElementConceptId": "C83113",
            "isNonStandard": false,
            "codelist": {
                "conceptId": "C71148",
                "submissionValue": "POSITION",
                "href": "https://ncithesaurus.nci.nih.gov/ncitbrowser/ConceptReport.jsp?dictionary=NCI_Thesaurus&ns=ncit&code=C71148"
            },
            "role": "Qualifier",
            "relationship": {
                "subject": "EGPOS",
                "linkingPhrase": "was the subject position during performance of the test in",
                "predicateTerm": "IS_SUBJECT_STATE_FOR",
                "object": "EGTESTCD"
            },
            "mandatoryVariable": false,
            "mandatoryValue": false
        },
        {
            "name": "EGMETHOD",
            "dataElementConceptId": "C83089",
            "isNonStandard": false,
            "codelist": {
                "conceptId": "C71151",
                "submissionValue": "EGMETHOD",
                "href": "https://ncithesaurus.nci.nih.gov/ncitbrowser/ConceptReport.jsp?dictionary=NCI_Thesaurus&ns=ncit&code=C71151"
            },
            "role": "Qualifier",
            "relationship": {
                "subject": "EGMETHOD",
                "linkingPhrase": "is the method for the test in",
                "predicateTerm": "SPECIFIES",
                "object": "EGTESTCD"
            },
            "mandatoryVariable": true,
            "mandatoryValue": false
        },
        {
            "name": "EGEVAL",
            "dataElementConceptId": "C83259",
            "isNonStandard": false,
            "codelist": {
                "conceptId": "C78735",
                "submissionValue": "EVAL",
                "href": "https://ncithesaurus.nci.nih.gov/ncitbrowser/ConceptReport.jsp?dictionary=NCI_Thesaurus&ns=ncit&code=C78735"
            },
            "subsetCodelist": "EVAL_EG",
            "valueList": [
                "ADJUDICATION COMMITTEE",
                "INDEPENDENT ASSESSOR",
                "INVESTIGATOR",
                "VENDOR"
            ],
            "role": "Qualifer",
            "relationship": {
                "subject": "EGEVAL",
                "linkingPhrase": "is the role of the assessor who performed the test in",
                "predicateTerm": "PERFORMS",
                "object": "EGTESTCD"
            },
            "mandatoryVariable": false,
            "mandatoryValue": false,
            "comparator": "IN"
        }
    ]
}