_links:
  parentBiomedicalConcept:
    href: /mdr/bc/packages/2022-10-26/biomedicalconcepts/C49678
    title: Respiration Rate
    type: Biomedical Concept
  parentPackage:
    href: /mdr/specializations/sdtm/packages/2023-07-06/datasetspecializations
    title: SDTM Dataset Specialization Package Effective 2023-07-06
    type: SDTM Dataset Specialization Package
  self:
    href: /mdr/specializations/sdtm/packages/2023-07-06/datasetspecializations/RESP
    title: Respiratory Rate
    type: SDTM Dataset Specialization
datasetSpecializationId: RESP
domain: VS
sdtmigEndVersion: ''
sdtmigStartVersion: 3-2
shortName: Respiratory Rate
source: VS.VSTESTCD
variables:
- assignedTerm:
    conceptId: C49678
    value: RESP
  codelist:
    conceptId: C66741
    href: https://ncithesaurus.nci.nih.gov/ncitbrowser/ConceptReport.jsp?dictionary=NCI_Thesaurus&ns=ncit&code=C66741
    submissionValue: VSTESTCD
  comparator: EQ
  isNonStandard: false
  mandatoryValue: false
  mandatoryVariable: true
  name: VSTESTCD
  relationship:
    linkingPhrase: is the code for the value in
    object: VSTEST
    predicateTerm: IS_DECODED_BY
    subject: VSTESTCD
  role: Topic
- assignedTerm:
    conceptId: C49678
    value: Respiratory Rate
  codelist:
    conceptId: C67153
    href: https://ncithesaurus.nci.nih.gov/ncitbrowser/ConceptReport.jsp?dictionary=NCI_Thesaurus&ns=ncit&code=C67153
    submissionValue: VSTEST
  isNonStandard: false
  mandatoryValue: false
  mandatoryVariable: true
  name: VSTEST
  relationship:
    linkingPhrase: decodes the value in
    object: VSTESTCD
    predicateTerm: DECODES
    subject: VSTEST
  role: Qualifier
- dataElementConceptId: C173522
  dataType: integer
  isNonStandard: false
  length: 3
  mandatoryValue: false
  mandatoryVariable: true
  name: VSORRES
  originSource: Investigator
  originType: Collected
  relationship:
    linkingPhrase: is the result of the test in
    object: VSTESTCD
    predicateTerm: IS_RESULT_OF
    subject: VSORRES
  role: Qualifier
  vlmTarget: true
- assignedTerm:
    conceptId: C49674
    value: breaths/min
  codelist:
    conceptId: C66770
    href: https://ncithesaurus.nci.nih.gov/ncitbrowser/ConceptReport.jsp?dictionary=NCI_Thesaurus&ns=ncit&code=C66770
    submissionValue: VSRESU
  dataElementConceptId: C73688
  isNonStandard: false
  mandatoryValue: false
  mandatoryVariable: true
  name: VSORRESU
  relationship:
    linkingPhrase: is the unit for the value in
    object: VSORRES
    predicateTerm: IS_UNIT_FOR
    subject: VSORRESU
  role: Qualifier
  vlmTarget: true
- dataElementConceptId: C173522
  dataType: integer
  isNonStandard: false
  length: 3
  mandatoryValue: false
  mandatoryVariable: false
  name: VSSTRESC
  relationship:
    linkingPhrase: is the result of the test in
    object: VSTESTCD
    predicateTerm: IS_RESULT_OF
    subject: VSSTRESC
  role: Qualifier
  vlmTarget: true
- dataElementConceptId: C173522
  dataType: integer
  isNonStandard: false
  length: 3
  mandatoryValue: false
  mandatoryVariable: false
  name: VSSTRESN
  relationship:
    linkingPhrase: is the result of the test in
    object: VSTESTCD
    predicateTerm: IS_RESULT_OF
    subject: VSSTRESN
  role: Qualifier
  vlmTarget: true
- assignedTerm:
    conceptId: C49674
    value: breaths/min
  codelist:
    conceptId: C66770
    href: https://ncithesaurus.nci.nih.gov/ncitbrowser/ConceptReport.jsp?dictionary=NCI_Thesaurus&ns=ncit&code=C66770
    submissionValue: VSRESU
  dataElementConceptId: C73688
  isNonStandard: false
  mandatoryValue: false
  mandatoryVariable: false
  name: VSSTRESU
  relationship:
    linkingPhrase: is the unit for the value in
    object: VSSTRESN
    predicateTerm: IS_UNIT_FOR
    subject: VSSTRESU
  role: Qualifier
  vlmTarget: true
