{
    "_links": {
        "parentBiomedicalConcept": {
            "href": "/mdr/bc/packages/2023-07-06/biomedicalconcepts/C171439",
            "title": "Severe Acute Respiratory Syndrome Coronavirus 2 Antibody Measurement",
            "type": "Biomedical Concept"
        },
        "parentPackage": {
            "href": "/mdr/specializations/sdtm/packages/2023-07-06/datasetspecializations",
            "title": "SDTM Dataset Specialization Package Effective 2023-07-06",
            "type": "SDTM Dataset Specialization Package"
        },
        "self": {
            "href": "/mdr/specializations/sdtm/packages/2023-07-06/datasetspecializations/SAR2ABDET",
            "title": "SARS-CoV-2 Antibody Detection",
            "type": "SDTM Dataset Specialization"
        }
    },
    "datasetSpecializationId": "SAR2ABDET",
    "domain": "MB",
    "shortName": "SARS-CoV-2 Antibody Detection",
    "source": "MB-MBTESTCD",
    "sdtmigStartVersion": "3-3",
    "sdtmigEndVersion": "",
    "variables": [
        {
            "name": "MBTESTCD",
            "isNonStandard": false,
            "codelist": {
                "conceptId": "C120527",
                "submissionValue": "MBTESTCD",
                "href": "https://ncithesaurus.nci.nih.gov/ncitbrowser/ConceptReport.jsp?dictionary=NCI_Thesaurus&ns=ncit&code=C120527"
            },
            "assignedTerm": {
                "conceptId": "C171439",
                "value": "SAR2AB"
            },
            "role": "Topic",
            "relationship": {
                "subject": "MBTESTCD",
                "linkingPhrase": "is the code for the value in",
                "predicateTerm": "IS_DECODED_BY",
                "object": "MBTEST"
            },
            "mandatoryVariable": true,
            "mandatoryValue": false,
            "comparator": "EQ"
        },
        {
            "name": "MBTEST",
            "isNonStandard": false,
            "codelist": {
                "conceptId": "C120528",
                "submissionValue": "MBTEST",
                "href": "https://ncithesaurus.nci.nih.gov/ncitbrowser/ConceptReport.jsp?dictionary=NCI_Thesaurus&ns=ncit&code=C120528"
            },
            "assignedTerm": {
                "conceptId": "C171439",
                "value": "SARS-CoV-2 Antibody"
            },
            "role": "Qualifier",
            "relationship": {
                "subject": "MBTEST",
                "linkingPhrase": "decodes the value in",
                "predicateTerm": "DECODES",
                "object": "MBTESTCD"
            },
            "mandatoryVariable": true,
            "mandatoryValue": false
        },
        {
            "name": "MBTSTDTL",
            "dataElementConceptId": "C117062",
            "isNonStandard": false,
            "codelist": {
                "conceptId": "C174225",
                "submissionValue": "MBFTSDTL",
                "href": "https://ncithesaurus.nci.nih.gov/ncitbrowser/ConceptReport.jsp?dictionary=NCI_Thesaurus&ns=ncit&code=C174225"
            },
            "assignedTerm": {
                "conceptId": "C174330",
                "value": "DETECTION"
            },
            "role": "Qualifier",
            "relationship": {
                "subject": "MBTSTDTL",
                "linkingPhrase": "further describes the test in",
                "predicateTerm": "SPECIFIES",
                "object": "MBTESTCD"
            },
            "mandatoryVariable": false,
            "mandatoryValue": false,
            "comparator": "EQ"
        },
        {
            "name": "MBORRES",
            "dataElementConceptId": "C36292",
            "isNonStandard": false,
            "role": "Qualifier",
            "dataType": "text",
            "length": 20,
            "relationship": {
                "subject": "MBORRES",
                "linkingPhrase": "is the result of the test in",
                "predicateTerm": "IS_RESULT_OF",
                "object": "MBTESTCD"
            },
            "mandatoryVariable": true,
            "mandatoryValue": false,
            "vlmTarget": true
        },
        {
            "name": "MBSTRESC",
            "dataElementConceptId": "C36292",
            "isNonStandard": false,
            "role": "Qualifier",
            "dataType": "text",
            "length": 20,
            "relationship": {
                "subject": "MBSTRESC",
                "linkingPhrase": "is the result of the test in",
                "predicateTerm": "IS_RESULT_OF",
                "object": "MBTESTCD"
            },
            "mandatoryVariable": true,
            "mandatoryValue": false,
            "vlmTarget": true
        },
        {
            "name": "MBLOINC",
            "isNonStandard": false,
            "assignedTerm": {
                "value": "94762-2"
            },
            "role": "Qualifier",
            "relationship": {
                "subject": "MBLOINC",
                "linkingPhrase": "identifies an observation described by",
                "predicateTerm": "IDENTIFIES_OBSERVATION",
                "object": "MBTESTCD"
            },
            "mandatoryVariable": false,
            "mandatoryValue": false
        },
        {
            "name": "MBSPEC",
            "dataElementConceptId": "C70713",
            "isNonStandard": false,
            "codelist": {
                "conceptId": "C78734",
                "submissionValue": "SPECTYPE",
                "href": "https://ncithesaurus.nci.nih.gov/ncitbrowser/ConceptReport.jsp?dictionary=NCI_Thesaurus&ns=ncit&code=C78734"
            },
            "assignedTerm": {
                "conceptId": "C105706",
                "value": "SERUM OR PLASMA"
            },
            "role": "Qualifier",
            "relationship": {
                "subject": "MBSPEC",
                "linkingPhrase": "is the specimen tested in",
                "predicateTerm": "IS_SPECIMEN_TESTED_IN",
                "object": "MBTESTCD"
            },
            "mandatoryVariable": false,
            "mandatoryValue": false,
            "comparator": "EQ"
        },
        {
            "name": "MBMETHOD",
            "dataElementConceptId": "C83312",
            "isNonStandard": false,
            "codelist": {
                "conceptId": "C85492",
                "submissionValue": "METHOD",
                "href": "https://ncithesaurus.nci.nih.gov/ncitbrowser/ConceptReport.jsp?dictionary=NCI_Thesaurus&ns=ncit&code=C85492"
            },
            "assignedTerm": {
                "conceptId": "C16714",
                "value": "IMMUNOASSAY"
            },
            "role": "Qualifier",
            "relationship": {
                "subject": "MBMETHOD",
                "linkingPhrase": "is the method for the test in",
                "predicateTerm": "SPECIFIES",
                "object": "MBTESTCD"
            },
            "mandatoryVariable": false,
            "mandatoryValue": false,
            "comparator": "EQ"
        }
    ]
}