_links:
  parentBiomedicalConcept:
    href: /mdr/bc/packages/2023-07-06/biomedicalconcepts/C171531
    title: SARS-CoV-2 RNA Measurement
    type: Biomedical Concept
  parentPackage:
    href: /mdr/specializations/sdtm/packages/2023-07-06/datasetspecializations
    title: SDTM Dataset Specialization Package Effective 2023-07-06
    type: SDTM Dataset Specialization Package
  self:
    href: /mdr/specializations/sdtm/packages/2023-07-06/datasetspecializations/SAR2RNAVIRAL
    title: SARS-CoV-2 RNA Viral Load
    type: SDTM Dataset Specialization
datasetSpecializationId: SAR2RNAVIRAL
domain: MB
sdtmigEndVersion: ''
sdtmigStartVersion: 3-3
shortName: SARS-CoV-2 RNA Viral Load
source: MB-MBTESTCD
variables:
- assignedTerm:
    conceptId: C171531
    value: SAR2RNA
  codelist:
    conceptId: C120527
    href: https://ncithesaurus.nci.nih.gov/ncitbrowser/ConceptReport.jsp?dictionary=NCI_Thesaurus&ns=ncit&code=C120527
    submissionValue: MBTESTCD
  comparator: EQ
  isNonStandard: false
  mandatoryValue: false
  mandatoryVariable: true
  name: MBTESTCD
  relationship:
    linkingPhrase: is the code for the value in
    object: MBTEST
    predicateTerm: IS_DECODED_BY
    subject: MBTESTCD
  role: Topic
- assignedTerm:
    conceptId: C171531
    value: SARS-CoV-2 RNA
  codelist:
    conceptId: C120528
    href: https://ncithesaurus.nci.nih.gov/ncitbrowser/ConceptReport.jsp?dictionary=NCI_Thesaurus&ns=ncit&code=C120528
    submissionValue: MBTEST
  isNonStandard: false
  mandatoryValue: false
  mandatoryVariable: true
  name: MBTEST
  relationship:
    linkingPhrase: decodes the value in
    object: MBTESTCD
    predicateTerm: DECODES
    subject: MBTEST
  role: Qualifier
- assignedTerm:
    conceptId: C174331
    value: VIRAL LOAD
  codelist:
    conceptId: C174225
    href: https://ncithesaurus.nci.nih.gov/ncitbrowser/ConceptReport.jsp?dictionary=NCI_Thesaurus&ns=ncit&code=C174225
    submissionValue: MBFTSDTL
  comparator: EQ
  dataElementConceptId: C117062
  isNonStandard: false
  mandatoryValue: false
  mandatoryVariable: false
  name: MBTSTDTL
  relationship:
    linkingPhrase: further describes the test in
    object: MBTESTCD
    predicateTerm: SPECIFIES
    subject: MBTSTDTL
  role: Qualifier
- dataElementConceptId: C36292
  dataType: text
  isNonStandard: false
  length: 20
  mandatoryValue: false
  mandatoryVariable: true
  name: MBORRES
  relationship:
    linkingPhrase: is the result of the test in
    object: MBTESTCD
    predicateTerm: IS_RESULT_OF
    subject: MBORRES
  role: Qualifier
  vlmTarget: true
- codelist:
    conceptId: C71620
    href: https://ncithesaurus.nci.nih.gov/ncitbrowser/ConceptReport.jsp?dictionary=NCI_Thesaurus&ns=ncit&code=C71620
    submissionValue: UNIT
  dataElementConceptId: C67391
  isNonStandard: false
  mandatoryValue: false
  mandatoryVariable: true
  name: MBORRESU
  relationship:
    linkingPhrase: is the unit for the value in
    object: MBORRES
    predicateTerm: IS_UNIT_FOR
    subject: MBORRESU
  role: Qualifier
  valueList:
  - log10 copies/mL
  - RNA copies/mL
  vlmTarget: true
- dataElementConceptId: C36292
  dataType: text
  isNonStandard: false
  length: 20
  mandatoryValue: false
  mandatoryVariable: true
  name: MBSTRESC
  relationship:
    linkingPhrase: is the result of the test in
    object: MBTESTCD
    predicateTerm: IS_RESULT_OF
    subject: MBSTRESC
  role: Qualifier
  vlmTarget: true
- dataElementConceptId: C36292
  dataType: float
  format: '12.4'
  isNonStandard: false
  length: 12
  mandatoryValue: false
  mandatoryVariable: true
  name: MBSTRESN
  relationship:
    linkingPhrase: is the result of the test in
    object: MBTESTCD
    predicateTerm: IS_RESULT_OF
    subject: MBSTRESN
  role: Qualifier
  significantDigits: 4
  vlmTarget: true
- assignedTerm:
    conceptId: C117972
    value: log10 copies/mL
  codelist:
    conceptId: C71620
    href: https://ncithesaurus.nci.nih.gov/ncitbrowser/ConceptReport.jsp?dictionary=NCI_Thesaurus&ns=ncit&code=C71620
    submissionValue: UNIT
  dataElementConceptId: C67391
  isNonStandard: false
  mandatoryValue: false
  mandatoryVariable: false
  name: MBSTRESU
  relationship:
    linkingPhrase: is the unit for the value in
    object: MBSTRESN
    predicateTerm: IS_UNIT_FOR
    subject: MBSTRESU
  role: Qualifier
  vlmTarget: true
- codelist:
    conceptId: C78734
    href: https://ncithesaurus.nci.nih.gov/ncitbrowser/ConceptReport.jsp?dictionary=NCI_Thesaurus&ns=ncit&code=C78734
    submissionValue: SPECTYPE
  comparator: IN
  dataElementConceptId: C70713
  isNonStandard: false
  mandatoryValue: false
  mandatoryVariable: false
  name: MBSPEC
  relationship:
    linkingPhrase: is the specimen tested in
    object: MBTESTCD
    predicateTerm: IS_SPECIMEN_TESTED_IN
    subject: MBSPEC
  role: Qualifier
  valueList:
  - ENDOTRACHEAL FLUID
  - LAVAGE FLUID
  - SALIVA
  - SERUM OR PLASMA
  - SERUM OR PLASMA OR BLOOD
  - SWABBED MATERIAL
- codelist:
    conceptId: C74456
    href: https://ncithesaurus.nci.nih.gov/ncitbrowser/ConceptReport.jsp?dictionary=NCI_Thesaurus&ns=ncit&code=C74456
    submissionValue: LOC
  comparator: IN
  dataElementConceptId: C171435
  isNonStandard: false
  mandatoryValue: false
  mandatoryVariable: false
  name: MBLOC
  relationship:
    linkingPhrase: is the subject position during performance of the test in
    object: MBTESTCD
    predicateTerm: IS_SUBJECT_STATE_FOR
    subject: MBLOC
  role: Qualifier
  valueList:
  - ALVEOLUS
  - NASOPHARYNX
  - OROPHARYNX
  - UPPER RESPIRATORY SYSTEM
- assignedTerm:
    conceptId: C28408
    value: QUANTITATIVE REVERSE TRANSCRIPTASE POLYMERASE CHAIN REACTION
  codelist:
    conceptId: C85492
    href: https://ncithesaurus.nci.nih.gov/ncitbrowser/ConceptReport.jsp?dictionary=NCI_Thesaurus&ns=ncit&code=C85492
    submissionValue: METHOD
  comparator: EQ
  dataElementConceptId: C83312
  isNonStandard: false
  mandatoryValue: false
  mandatoryVariable: false
  name: MBMETHOD
  relationship:
    linkingPhrase: is the method for the test in
    object: MBTESTCD
    predicateTerm: SPECIFIES
    subject: MBMETHOD
  role: Qualifier
