{
    "_links": {
        "parentBiomedicalConcept": {
            "href": "/mdr/bc/packages/2023-07-06/biomedicalconcepts/C186208",
            "title": "Study Site Transfer",
            "type": "Biomedical Concept"
        },
        "parentPackage": {
            "href": "/mdr/specializations/sdtm/packages/2023-07-06/datasetspecializations",
            "title": "SDTM Dataset Specialization Package Effective 2023-07-06",
            "type": "SDTM Dataset Specialization Package"
        },
        "self": {
            "href": "/mdr/specializations/sdtm/packages/2023-07-06/datasetspecializations/SITETRANSFER",
            "title": "Site Transfer",
            "type": "SDTM Dataset Specialization"
        }
    },
    "datasetSpecializationId": "SITETRANSFER",
    "domain": "DS",
    "shortName": "Site Transfer",
    "source": "DS.DECODE",
    "sdtmigStartVersion": "3-2",
    "sdtmigEndVersion": "",
    "variables": [
        {
            "name": "DSCAT",
            "dataElementConceptId": "C83245",
            "isNonStandard": false,
            "codelist": {
                "conceptId": "C74558",
                "submissionValue": "DSCAT",
                "href": "https://ncithesaurus.nci.nih.gov/ncitbrowser/ConceptReport.jsp?dictionary=NCI_Thesaurus&ns=ncit&code=C74558"
            },
            "assignedTerm": {
                "conceptId": "C150824",
                "value": "OTHER EVENT"
            },
            "role": "Qualifier",
            "relationship": {
                "subject": "DSCAT",
                "linkingPhrase": "groups values in",
                "predicateTerm": "GROUPS",
                "object": "DSTERM"
            },
            "mandatoryVariable": true,
            "mandatoryValue": false
        },
        {
            "name": "DSDECOD",
            "dataElementConceptId": "C83122",
            "isNonStandard": false,
            "codelist": {
                "conceptId": "C150811",
                "submissionValue": "OTHEVENT",
                "href": "https://ncithesaurus.nci.nih.gov/ncitbrowser/ConceptReport.jsp?dictionary=NCI_Thesaurus&ns=ncit&code=C150811"
            },
            "assignedTerm": {
                "conceptId": "C186208",
                "value": "SITE TRANSFER"
            },
            "role": "Qualifier",
            "dataType": "text",
            "length": 200,
            "relationship": {
                "subject": "DSDECOD",
                "linkingPhrase": "is a dictionary-derived term for the value in",
                "predicateTerm": "IS_DERIVED_FROM",
                "object": "DSTERM"
            },
            "mandatoryVariable": true,
            "mandatoryValue": true,
            "originType": "Assigned",
            "originSource": "Sponsor"
        },
        {
            "name": "DSTERM",
            "dataElementConceptId": "C82571",
            "isNonStandard": false,
            "role": "Topic",
            "dataType": "text",
            "length": 200,
            "relationship": {
                "subject": "DSTERM",
                "linkingPhrase": "is original text for",
                "predicateTerm": "IS_ORIGINAL_TEXT_FOR",
                "object": "DSDECOD"
            },
            "mandatoryVariable": true,
            "mandatoryValue": true,
            "originType": "Assigned",
            "originSource": "Sponsor"
        }
    ]
}